SpectraSuite Data File
++++++++++++++++++++++++++++++++++++
Date: Mon Jan 14 11:47:57 GMT 2019
User: yyl18
Dark Spectrum Present: Yes
Reference Spectrum Present: Yes
Number of Sampled Component Spectra: 1
Spectrometers: USB2G54094
Integration Time (usec): 3500 (USB2G54094)
Spectra Averaged: 50 (USB2G54094)
Boxcar Smoothing: 0 (USB2G54094)
Correct for Electrical Dark: No (USB2G54094)
Strobe/Lamp Enabled: No (USB2G54094)
Correct for Detector Non-linearity: No (USB2G54094)
Correct for Stray Light: No (USB2G54094)
Number of Pixels in Processed Spectrum: 651
>>>>>Begin Processed Spectral Data<<<<<
350.00	0.038
351.00	0.075
352.00	0.034
353.00	0.094
354.00	0.006
355.00	0.040
356.00	0.056
357.00	0.041
358.00	0.011
359.00	0.055
360.00	0.070
361.00	0.071
362.00	0.056
363.00	0.037
364.00	0.039
365.00	0.047
366.00	0.074
367.00	0.068
368.00	0.065
369.00	0.004
370.00	0.059
371.00	0.079
372.00	0.126
373.00	0.083
374.00	0.097
375.00	0.121
376.00	0.130
377.00	0.073
378.00	0.031
379.00	0.125
380.00	0.060
381.00	0.088
382.00	0.106
383.00	0.112
384.00	0.136
385.00	0.137
386.00	0.054
387.00	0.060
388.00	0.082
389.00	0.108
390.00	0.084
391.00	0.134
392.00	0.044
393.00	0.060
394.00	0.089
395.00	0.073
396.00	0.076
397.00	0.039
398.00	0.068
399.00	0.080
400.00	0.037
401.00	0.097
402.00	0.047
403.00	0.037
404.00	0.046
405.00	0.056
406.00	0.057
407.00	0.056
408.00	0.027
409.00	0.042
410.00	0.037
411.00	0.034
412.00	0.028
413.00	0.030
414.00	0.042
415.00	0.042
416.00	0.033
417.00	0.019
418.00	0.035
419.00	0.042
420.00	0.023
421.00	0.021
422.00	0.027
423.00	0.016
424.00	0.018
425.00	0.029
426.00	0.026
427.00	0.011
428.00	0.017
429.00	0.024
430.00	0.010
431.00	0.025
432.00	0.016
433.00	0.016
434.00	0.017
435.00	0.025
436.00	0.017
437.00	0.027
438.00	0.019
439.00	0.024
440.00	0.022
441.00	0.020
442.00	0.016
443.00	0.021
444.00	0.026
445.00	0.022
446.00	0.027
447.00	0.029
448.00	0.026
449.00	0.021
450.00	0.032
451.00	0.023
452.00	0.033
453.00	0.031
454.00	0.031
455.00	0.032
456.00	0.033
457.00	0.032
458.00	0.042
459.00	0.039
460.00	0.040
461.00	0.036
462.00	0.039
463.00	0.042
464.00	0.038
465.00	0.041
466.00	0.048
467.00	0.049
468.00	0.047
469.00	0.054
470.00	0.054
471.00	0.055
472.00	0.054
473.00	0.054
474.00	0.061
475.00	0.064
476.00	0.063
477.00	0.065
478.00	0.068
479.00	0.072
480.00	0.073
481.00	0.072
482.00	0.071
483.00	0.076
484.00	0.081
485.00	0.081
486.00	0.082
487.00	0.086
488.00	0.088
489.00	0.092
490.00	0.093
491.00	0.098
492.00	0.099
493.00	0.105
494.00	0.106
495.00	0.110
496.00	0.114
497.00	0.116
498.00	0.122
499.00	0.125
500.00	0.129
501.00	0.131
502.00	0.138
503.00	0.140
504.00	0.145
505.00	0.148
506.00	0.153
507.00	0.158
508.00	0.162
509.00	0.169
510.00	0.171
511.00	0.176
512.00	0.183
513.00	0.187
514.00	0.195
515.00	0.198
516.00	0.205
517.00	0.209
518.00	0.217
519.00	0.223
520.00	0.229
521.00	0.236
522.00	0.242
523.00	0.248
524.00	0.255
525.00	0.262
526.00	0.269
527.00	0.276
528.00	0.283
529.00	0.291
530.00	0.301
531.00	0.307
532.00	0.315
533.00	0.325
534.00	0.331
535.00	0.341
536.00	0.350
537.00	0.357
538.00	0.367
539.00	0.378
540.00	0.385
541.00	0.396
542.00	0.403
543.00	0.413
544.00	0.421
545.00	0.432
546.00	0.441
547.00	0.449
548.00	0.458
549.00	0.467
550.00	0.474
551.00	0.486
552.00	0.493
553.00	0.503
554.00	0.511
555.00	0.522
556.00	0.530
557.00	0.540
558.00	0.548
559.00	0.559
560.00	0.569
561.00	0.581
562.00	0.593
563.00	0.602
564.00	0.616
565.00	0.628
566.00	0.642
567.00	0.656
568.00	0.671
569.00	0.684
570.00	0.699
571.00	0.716
572.00	0.732
573.00	0.750
574.00	0.768
575.00	0.787
576.00	0.808
577.00	0.823
578.00	0.847
579.00	0.865
580.00	0.884
581.00	0.901
582.00	0.924
583.00	0.942
584.00	0.956
585.00	0.968
586.00	0.986
587.00	0.997
588.00	1.000
589.00	1.011
590.00	1.018
591.00	1.016
592.00	1.013
593.00	1.007
594.00	0.998
595.00	0.983
596.00	0.968
597.00	0.950
598.00	0.927
599.00	0.901
600.00	0.872
601.00	0.840
602.00	0.809
603.00	0.775
604.00	0.737
605.00	0.700
606.00	0.664
607.00	0.625
608.00	0.589
609.00	0.550
610.00	0.513
611.00	0.477
612.00	0.444
613.00	0.408
614.00	0.376
615.00	0.348
616.00	0.319
617.00	0.293
618.00	0.270
619.00	0.245
620.00	0.224
621.00	0.203
622.00	0.187
623.00	0.169
624.00	0.154
625.00	0.140
626.00	0.129
627.00	0.117
628.00	0.107
629.00	0.096
630.00	0.088
631.00	0.080
632.00	0.073
633.00	0.067
634.00	0.061
635.00	0.055
636.00	0.051
637.00	0.048
638.00	0.044
639.00	0.040
640.00	0.038
641.00	0.034
642.00	0.031
643.00	0.030
644.00	0.027
645.00	0.026
646.00	0.024
647.00	0.022
648.00	0.022
649.00	0.021
650.00	0.020
651.00	0.019
652.00	0.018
653.00	0.016
654.00	0.016
655.00	0.016
656.00	0.016
657.00	0.015
658.00	0.012
659.00	0.014
660.00	0.014
661.00	0.013
662.00	0.013
663.00	0.011
664.00	0.012
665.00	0.011
666.00	0.011
667.00	0.010
668.00	0.010
669.00	0.010
670.00	0.010
671.00	0.009
672.00	0.008
673.00	0.008
674.00	0.008
675.00	0.008
676.00	0.008
677.00	0.009
678.00	0.007
679.00	0.006
680.00	0.006
681.00	0.005
682.00	0.005
683.00	0.005
684.00	0.003
685.00	0.003
686.00	0.003
687.00	0.003
688.00	0.001
689.00	0.001
690.00	0.001
691.00	0.002
692.00	0.001
693.00	0.002
694.00	0.000
695.00	0.001
696.00	0.000
697.00	0.000
698.00	-0.000
699.00	-0.000
700.00	-0.000
701.00	-0.001
702.00	0.000
703.00	-0.001
704.00	-0.000
705.00	-0.001
706.00	-0.002
707.00	-0.002
708.00	-0.001
709.00	-0.001
710.00	-0.001
711.00	-0.001
712.00	-0.002
713.00	-0.001
714.00	-0.002
715.00	-0.003
716.00	-0.001
717.00	-0.001
718.00	-0.001
719.00	-0.001
720.00	-0.001
721.00	-0.002
722.00	-0.003
723.00	-0.002
724.00	-0.001
725.00	-0.001
726.00	-0.000
727.00	-0.002
728.00	-0.001
729.00	-0.002
730.00	-0.001
731.00	-0.001
732.00	-0.001
733.00	-0.001
734.00	-0.000
735.00	-0.000
736.00	0.001
737.00	-0.000
738.00	-0.000
739.00	0.000
740.00	0.000
741.00	-0.001
742.00	-0.001
743.00	-0.001
744.00	0.000
745.00	0.001
746.00	0.001
747.00	0.000
748.00	0.001
749.00	0.002
750.00	0.001
751.00	0.001
752.00	0.002
753.00	0.002
754.00	0.002
755.00	0.002
756.00	0.001
757.00	0.002
758.00	0.002
759.00	0.002
760.00	0.001
761.00	0.002
762.00	0.001
763.00	0.001
764.00	-0.000
765.00	-0.000
766.00	0.000
767.00	0.000
768.00	0.001
769.00	0.000
770.00	0.001
771.00	0.001
772.00	0.000
773.00	0.000
774.00	0.001
775.00	0.001
776.00	0.002
777.00	0.001
778.00	0.001
779.00	0.001
780.00	0.001
781.00	0.001
782.00	0.001
783.00	0.001
784.00	0.000
785.00	0.000
786.00	0.000
787.00	0.000
788.00	-0.000
789.00	0.000
790.00	-0.000
791.00	0.000
792.00	-0.000
793.00	0.000
794.00	0.000
795.00	-0.000
796.00	0.000
797.00	-0.000
798.00	-0.000
799.00	0.000
800.00	-0.000
801.00	0.000
802.00	0.001
803.00	0.001
804.00	0.002
805.00	0.002
806.00	0.001
807.00	0.002
808.00	0.002
809.00	0.001
810.00	0.003
811.00	0.001
812.00	0.002
813.00	0.001
814.00	0.002
815.00	0.001
816.00	0.003
817.00	0.000
818.00	0.001
819.00	0.001
820.00	0.002
821.00	0.000
822.00	0.001
823.00	0.000
824.00	0.001
825.00	0.001
826.00	0.003
827.00	0.002
828.00	0.003
829.00	0.001
830.00	0.002
831.00	0.003
832.00	0.003
833.00	0.002
834.00	0.002
835.00	0.002
836.00	0.003
837.00	0.002
838.00	0.002
839.00	0.002
840.00	0.003
841.00	0.001
842.00	0.002
843.00	0.001
844.00	0.002
845.00	0.001
846.00	0.001
847.00	0.001
848.00	0.001
849.00	0.002
850.00	0.001
851.00	0.001
852.00	0.000
853.00	0.002
854.00	0.001
855.00	0.002
856.00	0.000
857.00	0.001
858.00	0.002
859.00	0.002
860.00	0.001
861.00	0.001
862.00	0.001
863.00	0.001
864.00	0.002
865.00	0.003
866.00	0.003
867.00	0.002
868.00	0.002
869.00	0.002
870.00	0.002
871.00	0.002
872.00	0.001
873.00	0.002
874.00	0.002
875.00	0.001
876.00	0.002
877.00	0.002
878.00	0.001
879.00	0.002
880.00	0.001
881.00	0.000
882.00	0.000
883.00	-0.001
884.00	0.000
885.00	0.000
886.00	-0.000
887.00	0.002
888.00	0.001
889.00	0.001
890.00	0.000
891.00	0.001
892.00	0.001
893.00	0.001
894.00	0.001
895.00	-0.001
896.00	-0.001
897.00	0.000
898.00	-0.000
899.00	-0.000
900.00	0.000
901.00	0.001
902.00	-0.000
903.00	0.002
904.00	0.001
905.00	0.001
906.00	0.002
907.00	0.002
908.00	0.004
909.00	0.002
910.00	0.001
911.00	0.001
912.00	0.002
913.00	0.002
914.00	0.002
915.00	0.001
916.00	0.001
917.00	-0.000
918.00	0.000
919.00	0.001
920.00	0.001
921.00	0.000
922.00	-0.001
923.00	-0.001
924.00	0.001
925.00	-0.003
926.00	-0.000
927.00	0.001
928.00	0.001
929.00	0.003
930.00	0.001
931.00	0.000
932.00	0.001
933.00	0.001
934.00	0.000
935.00	0.001
936.00	0.001
937.00	0.001
938.00	0.002
939.00	0.003
940.00	0.002
941.00	0.001
942.00	0.001
943.00	-0.001
944.00	-0.000
945.00	0.000
946.00	0.001
947.00	0.001
948.00	0.001
949.00	0.000
950.00	0.000
951.00	-0.002
952.00	0.001
953.00	0.003
954.00	0.003
955.00	0.003
956.00	0.002
957.00	0.005
958.00	0.002
959.00	0.003
960.00	0.001
961.00	0.005
962.00	0.001
963.00	0.002
964.00	0.006
965.00	0.004
966.00	0.003
967.00	0.004
968.00	0.004
969.00	0.005
970.00	0.005
971.00	0.003
972.00	0.002
973.00	0.001
974.00	0.001
975.00	0.001
976.00	0.002
977.00	0.004
978.00	0.004
979.00	0.003
980.00	0.001
981.00	0.003
982.00	0.003
983.00	0.000
984.00	0.000
985.00	0.004
986.00	-0.001
987.00	0.001
988.00	0.003
989.00	0.001
990.00	0.003
991.00	0.002
992.00	0.006
993.00	0.002
994.00	0.005
995.00	0.002
996.00	0.005
997.00	0.005
998.00	0.002
999.00	0.004
1000.00	0.006
>>>>>End Processed Spectral Data<<<<<
