SpectraSuite Data File
++++++++++++++++++++++++++++++++++++
Date: Mon Jan 14 11:49:02 GMT 2019
User: yyl18
Dark Spectrum Present: Yes
Reference Spectrum Present: Yes
Number of Sampled Component Spectra: 1
Spectrometers: USB2G54094
Integration Time (usec): 3500 (USB2G54094)
Spectra Averaged: 50 (USB2G54094)
Boxcar Smoothing: 0 (USB2G54094)
Correct for Electrical Dark: No (USB2G54094)
Strobe/Lamp Enabled: No (USB2G54094)
Correct for Detector Non-linearity: No (USB2G54094)
Correct for Stray Light: No (USB2G54094)
Number of Pixels in Processed Spectrum: 651
>>>>>Begin Processed Spectral Data<<<<<
350.00	-0.020
351.00	0.001
352.00	-0.016
353.00	0.007
354.00	0.002
355.00	0.060
356.00	0.001
357.00	0.033
358.00	-0.026
359.00	0.022
360.00	0.058
361.00	0.007
362.00	0.005
363.00	-0.005
364.00	0.010
365.00	0.042
366.00	0.044
367.00	0.049
368.00	0.090
369.00	-0.014
370.00	0.045
371.00	0.048
372.00	0.049
373.00	0.071
374.00	0.038
375.00	0.090
376.00	0.074
377.00	0.069
378.00	0.058
379.00	0.014
380.00	0.091
381.00	0.072
382.00	0.077
383.00	0.080
384.00	0.062
385.00	0.092
386.00	0.059
387.00	0.032
388.00	0.089
389.00	0.096
390.00	0.076
391.00	0.092
392.00	0.064
393.00	0.090
394.00	0.151
395.00	0.134
396.00	0.110
397.00	0.101
398.00	0.123
399.00	0.123
400.00	0.100
401.00	0.128
402.00	0.142
403.00	0.127
404.00	0.155
405.00	0.191
406.00	0.168
407.00	0.159
408.00	0.159
409.00	0.175
410.00	0.174
411.00	0.168
412.00	0.184
413.00	0.183
414.00	0.202
415.00	0.211
416.00	0.191
417.00	0.207
418.00	0.230
419.00	0.223
420.00	0.222
421.00	0.218
422.00	0.218
423.00	0.231
424.00	0.227
425.00	0.238
426.00	0.249
427.00	0.239
428.00	0.245
429.00	0.258
430.00	0.261
431.00	0.261
432.00	0.240
433.00	0.254
434.00	0.272
435.00	0.265
436.00	0.269
437.00	0.260
438.00	0.264
439.00	0.266
440.00	0.255
441.00	0.263
442.00	0.268
443.00	0.271
444.00	0.271
445.00	0.269
446.00	0.268
447.00	0.264
448.00	0.268
449.00	0.264
450.00	0.263
451.00	0.261
452.00	0.260
453.00	0.260
454.00	0.255
455.00	0.257
456.00	0.237
457.00	0.251
458.00	0.249
459.00	0.248
460.00	0.249
461.00	0.244
462.00	0.234
463.00	0.235
464.00	0.230
465.00	0.226
466.00	0.224
467.00	0.218
468.00	0.216
469.00	0.217
470.00	0.211
471.00	0.210
472.00	0.203
473.00	0.200
474.00	0.199
475.00	0.196
476.00	0.194
477.00	0.187
478.00	0.187
479.00	0.183
480.00	0.179
481.00	0.170
482.00	0.166
483.00	0.160
484.00	0.157
485.00	0.150
486.00	0.147
487.00	0.144
488.00	0.136
489.00	0.133
490.00	0.127
491.00	0.128
492.00	0.120
493.00	0.119
494.00	0.116
495.00	0.109
496.00	0.106
497.00	0.102
498.00	0.098
499.00	0.094
500.00	0.090
501.00	0.089
502.00	0.085
503.00	0.080
504.00	0.078
505.00	0.072
506.00	0.071
507.00	0.067
508.00	0.064
509.00	0.065
510.00	0.059
511.00	0.058
512.00	0.054
513.00	0.051
514.00	0.050
515.00	0.047
516.00	0.045
517.00	0.041
518.00	0.039
519.00	0.039
520.00	0.034
521.00	0.035
522.00	0.033
523.00	0.030
524.00	0.029
525.00	0.028
526.00	0.026
527.00	0.024
528.00	0.023
529.00	0.023
530.00	0.020
531.00	0.019
532.00	0.018
533.00	0.018
534.00	0.016
535.00	0.015
536.00	0.015
537.00	0.015
538.00	0.013
539.00	0.013
540.00	0.012
541.00	0.011
542.00	0.011
543.00	0.010
544.00	0.010
545.00	0.011
546.00	0.009
547.00	0.010
548.00	0.010
549.00	0.010
550.00	0.008
551.00	0.009
552.00	0.008
553.00	0.008
554.00	0.008
555.00	0.007
556.00	0.008
557.00	0.008
558.00	0.006
559.00	0.008
560.00	0.007
561.00	0.008
562.00	0.008
563.00	0.007
564.00	0.007
565.00	0.008
566.00	0.009
567.00	0.009
568.00	0.009
569.00	0.008
570.00	0.009
571.00	0.010
572.00	0.009
573.00	0.011
574.00	0.011
575.00	0.012
576.00	0.011
577.00	0.011
578.00	0.011
579.00	0.013
580.00	0.011
581.00	0.014
582.00	0.014
583.00	0.016
584.00	0.015
585.00	0.015
586.00	0.018
587.00	0.017
588.00	0.017
589.00	0.019
590.00	0.018
591.00	0.019
592.00	0.018
593.00	0.018
594.00	0.018
595.00	0.018
596.00	0.017
597.00	0.016
598.00	0.017
599.00	0.016
600.00	0.015
601.00	0.014
602.00	0.015
603.00	0.013
604.00	0.013
605.00	0.012
606.00	0.010
607.00	0.009
608.00	0.009
609.00	0.009
610.00	0.006
611.00	0.006
612.00	0.005
613.00	0.004
614.00	0.004
615.00	0.003
616.00	0.003
617.00	0.002
618.00	0.001
619.00	0.001
620.00	-0.000
621.00	-0.001
622.00	-0.000
623.00	-0.002
624.00	-0.001
625.00	-0.001
626.00	-0.002
627.00	-0.001
628.00	-0.002
629.00	-0.002
630.00	-0.002
631.00	-0.003
632.00	-0.003
633.00	-0.002
634.00	-0.004
635.00	-0.004
636.00	-0.003
637.00	-0.002
638.00	-0.003
639.00	-0.002
640.00	-0.002
641.00	-0.002
642.00	-0.003
643.00	-0.003
644.00	-0.003
645.00	-0.003
646.00	-0.003
647.00	-0.003
648.00	-0.004
649.00	-0.003
650.00	-0.003
651.00	-0.003
652.00	-0.002
653.00	-0.002
654.00	-0.003
655.00	-0.002
656.00	-0.002
657.00	-0.003
658.00	-0.003
659.00	-0.002
660.00	-0.003
661.00	-0.004
662.00	-0.003
663.00	-0.003
664.00	-0.003
665.00	-0.003
666.00	-0.003
667.00	-0.004
668.00	-0.003
669.00	-0.003
670.00	-0.004
671.00	-0.005
672.00	-0.005
673.00	-0.004
674.00	-0.004
675.00	-0.003
676.00	-0.004
677.00	-0.003
678.00	-0.004
679.00	-0.004
680.00	-0.005
681.00	-0.005
682.00	-0.005
683.00	-0.004
684.00	-0.006
685.00	-0.006
686.00	-0.006
687.00	-0.006
688.00	-0.007
689.00	-0.006
690.00	-0.007
691.00	-0.006
692.00	-0.007
693.00	-0.007
694.00	-0.007
695.00	-0.006
696.00	-0.006
697.00	-0.007
698.00	-0.007
699.00	-0.007
700.00	-0.006
701.00	-0.006
702.00	-0.007
703.00	-0.008
704.00	-0.006
705.00	-0.007
706.00	-0.008
707.00	-0.008
708.00	-0.007
709.00	-0.006
710.00	-0.007
711.00	-0.007
712.00	-0.009
713.00	-0.008
714.00	-0.008
715.00	-0.008
716.00	-0.007
717.00	-0.006
718.00	-0.006
719.00	-0.006
720.00	-0.005
721.00	-0.006
722.00	-0.006
723.00	-0.006
724.00	-0.006
725.00	-0.006
726.00	-0.005
727.00	-0.006
728.00	-0.006
729.00	-0.006
730.00	-0.006
731.00	-0.006
732.00	-0.006
733.00	-0.006
734.00	-0.005
735.00	-0.005
736.00	-0.004
737.00	-0.005
738.00	-0.005
739.00	-0.004
740.00	-0.004
741.00	-0.005
742.00	-0.005
743.00	-0.005
744.00	-0.004
745.00	-0.002
746.00	-0.003
747.00	-0.003
748.00	-0.003
749.00	-0.002
750.00	-0.002
751.00	-0.004
752.00	-0.002
753.00	-0.002
754.00	-0.002
755.00	-0.001
756.00	-0.003
757.00	-0.002
758.00	-0.001
759.00	-0.002
760.00	-0.002
761.00	-0.001
762.00	-0.002
763.00	-0.000
764.00	-0.000
765.00	0.000
766.00	-0.001
767.00	-0.000
768.00	-0.000
769.00	-0.000
770.00	-0.000
771.00	-0.000
772.00	-0.000
773.00	-0.000
774.00	-0.000
775.00	-0.001
776.00	-0.001
777.00	-0.000
778.00	-0.000
779.00	-0.000
780.00	-0.000
781.00	-0.002
782.00	-0.001
783.00	-0.000
784.00	-0.000
785.00	0.000
786.00	-0.000
787.00	0.000
788.00	-0.000
789.00	0.000
790.00	-0.000
791.00	0.000
792.00	-0.000
793.00	-0.000
794.00	0.000
795.00	-0.000
796.00	0.000
797.00	-0.000
798.00	-0.000
799.00	0.000
800.00	0.000
801.00	-0.000
802.00	-0.000
803.00	-0.000
804.00	-0.001
805.00	-0.001
806.00	-0.002
807.00	-0.001
808.00	-0.002
809.00	-0.001
810.00	-0.000
811.00	-0.001
812.00	-0.001
813.00	-0.001
814.00	-0.001
815.00	-0.002
816.00	-0.002
817.00	-0.002
818.00	-0.001
819.00	-0.002
820.00	-0.001
821.00	-0.002
822.00	-0.002
823.00	-0.002
824.00	-0.002
825.00	-0.001
826.00	-0.001
827.00	-0.002
828.00	-0.001
829.00	-0.002
830.00	-0.002
831.00	-0.000
832.00	0.001
833.00	-0.001
834.00	-0.001
835.00	-0.001
836.00	-0.001
837.00	-0.000
838.00	-0.001
839.00	-0.001
840.00	-0.000
841.00	-0.001
842.00	-0.002
843.00	-0.002
844.00	-0.001
845.00	-0.002
846.00	-0.002
847.00	-0.002
848.00	-0.002
849.00	-0.002
850.00	-0.002
851.00	-0.002
852.00	-0.004
853.00	-0.001
854.00	-0.002
855.00	-0.002
856.00	-0.002
857.00	-0.003
858.00	-0.002
859.00	-0.002
860.00	-0.001
861.00	-0.002
862.00	-0.003
863.00	-0.002
864.00	-0.002
865.00	-0.000
866.00	0.001
867.00	-0.000
868.00	-0.000
869.00	-0.002
870.00	-0.001
871.00	-0.001
872.00	-0.002
873.00	-0.001
874.00	-0.001
875.00	-0.001
876.00	-0.002
877.00	-0.001
878.00	-0.002
879.00	-0.001
880.00	-0.001
881.00	-0.003
882.00	-0.002
883.00	-0.004
884.00	-0.002
885.00	-0.003
886.00	-0.003
887.00	-0.003
888.00	-0.003
889.00	-0.002
890.00	-0.003
891.00	-0.002
892.00	-0.001
893.00	-0.001
894.00	-0.001
895.00	-0.003
896.00	-0.003
897.00	-0.002
898.00	-0.003
899.00	-0.002
900.00	-0.002
901.00	-0.001
902.00	-0.002
903.00	-0.000
904.00	-0.001
905.00	-0.000
906.00	0.001
907.00	-0.001
908.00	0.001
909.00	-0.001
910.00	0.001
911.00	-0.001
912.00	-0.000
913.00	-0.001
914.00	0.000
915.00	-0.002
916.00	-0.001
917.00	-0.002
918.00	0.000
919.00	-0.001
920.00	-0.002
921.00	-0.002
922.00	-0.004
923.00	-0.004
924.00	-0.003
925.00	-0.005
926.00	-0.002
927.00	-0.001
928.00	-0.003
929.00	-0.001
930.00	-0.002
931.00	-0.002
932.00	-0.002
933.00	-0.001
934.00	-0.002
935.00	-0.001
936.00	0.001
937.00	0.001
938.00	0.001
939.00	0.001
940.00	0.000
941.00	-0.000
942.00	-0.001
943.00	-0.002
944.00	-0.002
945.00	-0.002
946.00	-0.001
947.00	-0.000
948.00	-0.003
949.00	-0.002
950.00	-0.003
951.00	-0.005
952.00	-0.002
953.00	-0.001
954.00	0.000
955.00	0.001
956.00	-0.002
957.00	0.001
958.00	-0.002
959.00	-0.003
960.00	-0.002
961.00	-0.001
962.00	-0.003
963.00	-0.003
964.00	-0.000
965.00	-0.002
966.00	-0.003
967.00	0.000
968.00	-0.000
969.00	0.001
970.00	0.001
971.00	0.001
972.00	0.001
973.00	-0.002
974.00	-0.001
975.00	-0.002
976.00	0.000
977.00	-0.000
978.00	-0.002
979.00	0.002
980.00	-0.001
981.00	-0.000
982.00	0.001
983.00	-0.000
984.00	-0.002
985.00	-0.001
986.00	-0.002
987.00	-0.003
988.00	0.001
989.00	-0.001
990.00	-0.001
991.00	-0.000
992.00	-0.001
993.00	0.000
994.00	0.001
995.00	0.002
996.00	-0.000
997.00	0.003
998.00	-0.000
999.00	0.001
1000.00	-0.000
>>>>>End Processed Spectral Data<<<<<
