SpectraSuite Data File
++++++++++++++++++++++++++++++++++++
Date: Mon Jan 14 11:46:09 GMT 2019
User: yyl18
Dark Spectrum Present: Yes
Reference Spectrum Present: Yes
Number of Sampled Component Spectra: 1
Spectrometers: USB2G54094
Integration Time (usec): 3500 (USB2G54094)
Spectra Averaged: 50 (USB2G54094)
Boxcar Smoothing: 0 (USB2G54094)
Correct for Electrical Dark: No (USB2G54094)
Strobe/Lamp Enabled: No (USB2G54094)
Correct for Detector Non-linearity: No (USB2G54094)
Correct for Stray Light: No (USB2G54094)
Number of Pixels in Processed Spectrum: 651
>>>>>Begin Processed Spectral Data<<<<<
350.00	0.142
351.00	0.012
352.00	0.063
353.00	0.036
354.00	0.026
355.00	0.012
356.00	0.021
357.00	-0.001
358.00	0.035
359.00	0.089
360.00	0.063
361.00	0.080
362.00	-0.002
363.00	0.022
364.00	0.056
365.00	0.082
366.00	0.070
367.00	0.022
368.00	0.124
369.00	0.003
370.00	0.078
371.00	0.097
372.00	0.072
373.00	0.042
374.00	0.055
375.00	0.140
376.00	0.050
377.00	0.051
378.00	0.071
379.00	0.071
380.00	0.099
381.00	0.078
382.00	0.100
383.00	0.082
384.00	0.075
385.00	0.137
386.00	0.041
387.00	0.068
388.00	0.060
389.00	0.110
390.00	0.076
391.00	0.103
392.00	0.086
393.00	0.107
394.00	0.082
395.00	0.141
396.00	0.094
397.00	0.106
398.00	0.091
399.00	0.114
400.00	0.089
401.00	0.110
402.00	0.123
403.00	0.114
404.00	0.095
405.00	0.104
406.00	0.100
407.00	0.120
408.00	0.103
409.00	0.113
410.00	0.121
411.00	0.105
412.00	0.125
413.00	0.139
414.00	0.126
415.00	0.130
416.00	0.112
417.00	0.129
418.00	0.138
419.00	0.153
420.00	0.140
421.00	0.154
422.00	0.139
423.00	0.136
424.00	0.149
425.00	0.150
426.00	0.139
427.00	0.143
428.00	0.154
429.00	0.145
430.00	0.161
431.00	0.153
432.00	0.142
433.00	0.155
434.00	0.147
435.00	0.159
436.00	0.155
437.00	0.156
438.00	0.150
439.00	0.155
440.00	0.159
441.00	0.156
442.00	0.165
443.00	0.159
444.00	0.166
445.00	0.162
446.00	0.169
447.00	0.164
448.00	0.160
449.00	0.158
450.00	0.154
451.00	0.159
452.00	0.166
453.00	0.157
454.00	0.161
455.00	0.154
456.00	0.154
457.00	0.156
458.00	0.157
459.00	0.159
460.00	0.153
461.00	0.148
462.00	0.152
463.00	0.151
464.00	0.147
465.00	0.147
466.00	0.144
467.00	0.141
468.00	0.144
469.00	0.145
470.00	0.143
471.00	0.146
472.00	0.141
473.00	0.139
474.00	0.136
475.00	0.133
476.00	0.137
477.00	0.129
478.00	0.129
479.00	0.135
480.00	0.128
481.00	0.125
482.00	0.123
483.00	0.119
484.00	0.115
485.00	0.115
486.00	0.117
487.00	0.116
488.00	0.111
489.00	0.109
490.00	0.107
491.00	0.109
492.00	0.106
493.00	0.109
494.00	0.108
495.00	0.103
496.00	0.104
497.00	0.102
498.00	0.100
499.00	0.103
500.00	0.101
501.00	0.100
502.00	0.101
503.00	0.099
504.00	0.102
505.00	0.096
506.00	0.099
507.00	0.097
508.00	0.100
509.00	0.100
510.00	0.099
511.00	0.099
512.00	0.099
513.00	0.101
514.00	0.102
515.00	0.103
516.00	0.104
517.00	0.102
518.00	0.107
519.00	0.108
520.00	0.108
521.00	0.110
522.00	0.111
523.00	0.112
524.00	0.116
525.00	0.116
526.00	0.119
527.00	0.120
528.00	0.123
529.00	0.126
530.00	0.128
531.00	0.129
532.00	0.133
533.00	0.137
534.00	0.139
535.00	0.142
536.00	0.145
537.00	0.148
538.00	0.151
539.00	0.156
540.00	0.160
541.00	0.162
542.00	0.164
543.00	0.168
544.00	0.172
545.00	0.177
546.00	0.180
547.00	0.183
548.00	0.188
549.00	0.191
550.00	0.194
551.00	0.199
552.00	0.201
553.00	0.207
554.00	0.210
555.00	0.213
556.00	0.217
557.00	0.220
558.00	0.225
559.00	0.231
560.00	0.234
561.00	0.237
562.00	0.242
563.00	0.247
564.00	0.252
565.00	0.259
566.00	0.265
567.00	0.271
568.00	0.276
569.00	0.283
570.00	0.290
571.00	0.297
572.00	0.304
573.00	0.313
574.00	0.320
575.00	0.329
576.00	0.338
577.00	0.347
578.00	0.355
579.00	0.364
580.00	0.373
581.00	0.383
582.00	0.394
583.00	0.404
584.00	0.411
585.00	0.419
586.00	0.427
587.00	0.434
588.00	0.438
589.00	0.444
590.00	0.448
591.00	0.452
592.00	0.452
593.00	0.449
594.00	0.448
595.00	0.444
596.00	0.441
597.00	0.434
598.00	0.424
599.00	0.414
600.00	0.400
601.00	0.389
602.00	0.374
603.00	0.358
604.00	0.342
605.00	0.325
606.00	0.306
607.00	0.290
608.00	0.271
609.00	0.255
610.00	0.237
611.00	0.220
612.00	0.204
613.00	0.188
614.00	0.173
615.00	0.159
616.00	0.146
617.00	0.132
618.00	0.121
619.00	0.109
620.00	0.098
621.00	0.089
622.00	0.081
623.00	0.071
624.00	0.063
625.00	0.058
626.00	0.051
627.00	0.047
628.00	0.040
629.00	0.036
630.00	0.032
631.00	0.027
632.00	0.024
633.00	0.022
634.00	0.018
635.00	0.015
636.00	0.013
637.00	0.012
638.00	0.008
639.00	0.007
640.00	0.006
641.00	0.003
642.00	0.002
643.00	0.002
644.00	0.000
645.00	-0.002
646.00	-0.001
647.00	-0.002
648.00	-0.003
649.00	-0.004
650.00	-0.003
651.00	-0.003
652.00	-0.005
653.00	-0.005
654.00	-0.006
655.00	-0.006
656.00	-0.006
657.00	-0.006
658.00	-0.008
659.00	-0.007
660.00	-0.008
661.00	-0.008
662.00	-0.007
663.00	-0.008
664.00	-0.008
665.00	-0.009
666.00	-0.010
667.00	-0.011
668.00	-0.009
669.00	-0.008
670.00	-0.009
671.00	-0.010
672.00	-0.009
673.00	-0.009
674.00	-0.008
675.00	-0.008
676.00	-0.009
677.00	-0.008
678.00	-0.009
679.00	-0.009
680.00	-0.009
681.00	-0.011
682.00	-0.010
683.00	-0.010
684.00	-0.011
685.00	-0.011
686.00	-0.011
687.00	-0.010
688.00	-0.012
689.00	-0.011
690.00	-0.011
691.00	-0.010
692.00	-0.011
693.00	-0.011
694.00	-0.011
695.00	-0.010
696.00	-0.011
697.00	-0.011
698.00	-0.011
699.00	-0.012
700.00	-0.011
701.00	-0.012
702.00	-0.010
703.00	-0.012
704.00	-0.010
705.00	-0.012
706.00	-0.013
707.00	-0.013
708.00	-0.012
709.00	-0.012
710.00	-0.012
711.00	-0.011
712.00	-0.012
713.00	-0.012
714.00	-0.012
715.00	-0.012
716.00	-0.011
717.00	-0.011
718.00	-0.010
719.00	-0.010
720.00	-0.011
721.00	-0.011
722.00	-0.012
723.00	-0.011
724.00	-0.012
725.00	-0.011
726.00	-0.010
727.00	-0.012
728.00	-0.011
729.00	-0.012
730.00	-0.012
731.00	-0.011
732.00	-0.011
733.00	-0.010
734.00	-0.009
735.00	-0.010
736.00	-0.009
737.00	-0.010
738.00	-0.010
739.00	-0.010
740.00	-0.010
741.00	-0.011
742.00	-0.010
743.00	-0.010
744.00	-0.009
745.00	-0.009
746.00	-0.009
747.00	-0.009
748.00	-0.009
749.00	-0.009
750.00	-0.009
751.00	-0.010
752.00	-0.009
753.00	-0.009
754.00	-0.009
755.00	-0.006
756.00	-0.008
757.00	-0.004
758.00	-0.002
759.00	-0.003
760.00	-0.002
761.00	-0.002
762.00	-0.003
763.00	-0.000
764.00	-0.000
765.00	0.000
766.00	-0.001
767.00	-0.000
768.00	-0.001
769.00	-0.000
770.00	-0.000
771.00	-0.001
772.00	-0.000
773.00	-0.000
774.00	-0.001
775.00	-0.001
776.00	-0.002
777.00	-0.002
778.00	0.000
779.00	0.000
780.00	-0.000
781.00	-0.003
782.00	-0.001
783.00	-0.001
784.00	-0.000
785.00	0.000
786.00	-0.000
787.00	0.000
788.00	-0.000
789.00	0.000
790.00	-0.000
791.00	0.000
792.00	-0.000
793.00	-0.000
794.00	-0.000
795.00	-0.000
796.00	0.000
797.00	-0.000
798.00	-0.000
799.00	0.000
800.00	-0.000
801.00	-0.000
802.00	-0.000
803.00	-0.000
804.00	-0.003
805.00	-0.008
806.00	-0.010
807.00	-0.009
808.00	-0.009
809.00	-0.009
810.00	-0.008
811.00	-0.009
812.00	-0.009
813.00	-0.009
814.00	-0.010
815.00	-0.010
816.00	-0.009
817.00	-0.010
818.00	-0.009
819.00	-0.009
820.00	-0.008
821.00	-0.010
822.00	-0.010
823.00	-0.010
824.00	-0.009
825.00	-0.009
826.00	-0.008
827.00	-0.008
828.00	-0.008
829.00	-0.009
830.00	-0.008
831.00	-0.008
832.00	-0.007
833.00	-0.008
834.00	-0.009
835.00	-0.009
836.00	-0.009
837.00	-0.009
838.00	-0.009
839.00	-0.010
840.00	-0.008
841.00	-0.010
842.00	-0.010
843.00	-0.010
844.00	-0.008
845.00	-0.009
846.00	-0.010
847.00	-0.011
848.00	-0.010
849.00	-0.010
850.00	-0.009
851.00	-0.010
852.00	-0.010
853.00	-0.009
854.00	-0.009
855.00	-0.009
856.00	-0.010
857.00	-0.009
858.00	-0.009
859.00	-0.009
860.00	-0.009
861.00	-0.010
862.00	-0.010
863.00	-0.009
864.00	-0.008
865.00	-0.008
866.00	-0.007
867.00	-0.009
868.00	-0.009
869.00	-0.010
870.00	-0.009
871.00	-0.010
872.00	-0.011
873.00	-0.010
874.00	-0.010
875.00	-0.010
876.00	-0.010
877.00	-0.009
878.00	-0.011
879.00	-0.010
880.00	-0.009
881.00	-0.010
882.00	-0.010
883.00	-0.012
884.00	-0.011
885.00	-0.012
886.00	-0.011
887.00	-0.010
888.00	-0.010
889.00	-0.009
890.00	-0.011
891.00	-0.010
892.00	-0.011
893.00	-0.010
894.00	-0.009
895.00	-0.012
896.00	-0.011
897.00	-0.011
898.00	-0.011
899.00	-0.010
900.00	-0.011
901.00	-0.008
902.00	-0.012
903.00	-0.009
904.00	-0.010
905.00	-0.011
906.00	-0.009
907.00	-0.010
908.00	-0.007
909.00	-0.009
910.00	-0.010
911.00	-0.010
912.00	-0.010
913.00	-0.010
914.00	-0.010
915.00	-0.010
916.00	-0.011
917.00	-0.013
918.00	-0.009
919.00	-0.009
920.00	-0.009
921.00	-0.011
922.00	-0.013
923.00	-0.011
924.00	-0.010
925.00	-0.012
926.00	-0.010
927.00	-0.010
928.00	-0.009
929.00	-0.009
930.00	-0.010
931.00	-0.009
932.00	-0.009
933.00	-0.008
934.00	-0.008
935.00	-0.009
936.00	-0.009
937.00	-0.007
938.00	-0.006
939.00	-0.007
940.00	-0.008
941.00	-0.009
942.00	-0.009
943.00	-0.011
944.00	-0.011
945.00	-0.011
946.00	-0.009
947.00	-0.007
948.00	-0.009
949.00	-0.008
950.00	-0.009
951.00	-0.011
952.00	-0.009
953.00	-0.007
954.00	-0.007
955.00	-0.005
956.00	-0.006
957.00	-0.004
958.00	-0.006
959.00	-0.006
960.00	-0.004
961.00	-0.006
962.00	-0.008
963.00	-0.005
964.00	-0.003
965.00	-0.006
966.00	-0.006
967.00	-0.003
968.00	-0.005
969.00	-0.002
970.00	-0.005
971.00	-0.002
972.00	-0.005
973.00	-0.005
974.00	-0.008
975.00	-0.006
976.00	-0.007
977.00	-0.004
978.00	-0.004
979.00	-0.004
980.00	-0.006
981.00	-0.005
982.00	-0.008
983.00	-0.008
984.00	-0.009
985.00	-0.007
986.00	-0.011
987.00	-0.007
988.00	-0.005
989.00	-0.008
990.00	-0.008
991.00	-0.009
992.00	-0.008
993.00	-0.008
994.00	-0.011
995.00	-0.008
996.00	-0.010
997.00	-0.005
998.00	-0.008
999.00	-0.009
1000.00	-0.008
>>>>>End Processed Spectral Data<<<<<
